Temp(K)	    k(W/m-K)
250.0	      9.5
251.0	      9.48
252.0	      9.47
253.0	      9.45
254.0	      9.44
255.0	      9.42
256.0	      9.41
257.0	      9.39
258.0	      9.38
259.0	      9.36
260.0	      9.35
261.0	      9.34
262.0	      9.32
263.0	      9.31
264.0	      9.29
265.0	      9.28
266.0	      9.26
267.0	      9.25
268.0	      9.23
269.0	      9.22
270.0	      9.2
271.0	      9.19
272.0	      9.18
273.0	      9.16
274.0	      9.15
275.0	      9.13
276.0	      9.12
277.0	      9.1
278.0	      9.09
279.0	      9.08
280.0	      9.06
281.0	      9.05
282.0	      9.03
283.0	      9.02
284.0	      9.01
285.0	      8.99
286.0	      8.98
287.0	      8.97
288.0	      8.95
289.0	      8.94
290.0	      8.92
291.0	      8.91
292.0	      8.9
293.0	      8.88
294.0	      8.87
295.0	      8.86
296.0	      8.84
297.0	      8.83
298.0	      8.82
299.0	      8.8
300.0	      8.79
301.0	      8.78
302.0	      8.76
303.0	      8.75
304.0	      8.74
305.0	      8.72
306.0	      8.71
307.0	      8.7
308.0	      8.69
309.0	      8.67
310.0	      8.66
311.0	      8.65
312.0	      8.63
313.0	      8.62
314.0	      8.61
315.0	      8.6
316.0	      8.58
317.0	      8.57
318.0	      8.56
319.0	      8.54
320.0	      8.53
321.0	      8.52
322.0	      8.51
323.0	      8.49
324.0	      8.48
325.0	      8.47
326.0	      8.46
327.0	      8.44
328.0	      8.43
329.0	      8.42
330.0	      8.41
331.0	      8.4
332.0	      8.38
333.0	      8.37
334.0	      8.36
335.0	      8.35
336.0	      8.33
337.0	      8.32
338.0	      8.31
339.0	      8.3
340.0	      8.29
341.0	      8.27
342.0	      8.26
343.0	      8.25
344.0	      8.24
345.0	      8.23
346.0	      8.22
347.0	      8.2
348.0	      8.19
349.0	      8.18
350.0	      8.17
351.0	      8.16
352.0	      8.15
353.0	      8.13
354.0	      8.12
355.0	      8.11
356.0	      8.1
357.0	      8.09
358.0	      8.08
359.0	      8.07
360.0	      8.05
361.0	      8.04
362.0	      8.03
363.0	      8.02
364.0	      8.01
365.0	      8.0
366.0	      7.99
367.0	      7.97
368.0	      7.96
369.0	      7.95
370.0	      7.94
371.0	      7.93
372.0	      7.92
373.0	      7.91
374.0	      7.9
375.0	      7.89
376.0	      7.88
377.0	      7.86
378.0	      7.85
379.0	      7.84
380.0	      7.83
381.0	      7.82
382.0	      7.81
383.0	      7.8
384.0	      7.79
385.0	      7.78
386.0	      7.77
387.0	      7.76
388.0	      7.75
389.0	      7.74
390.0	      7.72
391.0	      7.71
392.0	      7.7
393.0	      7.69
394.0	      7.68
395.0	      7.67
396.0	      7.66
397.0	      7.65
398.0	      7.64
399.0	      7.63
400.0	      7.62
401.0	      7.61
402.0	      7.6
403.0	      7.59
404.0	      7.58
405.0	      7.57
406.0	      7.56
407.0	      7.55
408.0	      7.54
409.0	      7.53
410.0	      7.52
411.0	      7.51
412.0	      7.5
413.0	      7.49
414.0	      7.48
415.0	      7.47
416.0	      7.46
417.0	      7.45
418.0	      7.44
419.0	      7.43
420.0	      7.42
421.0	      7.41
422.0	      7.4
423.0	      7.39
424.0	      7.38
425.0	      7.37
426.0	      7.36
427.0	      7.35
428.0	      7.34
429.0	      7.33
430.0	      7.32
431.0	      7.31
432.0	      7.3
433.0	      7.29
434.0	      7.28
435.0	      7.27
436.0	      7.26
437.0	      7.25
438.0	      7.25
439.0	      7.24
440.0	      7.23
441.0	      7.22
442.0	      7.21
443.0	      7.2
444.0	      7.19
445.0	      7.18
446.0	      7.17
447.0	      7.16
448.0	      7.15
449.0	      7.14
450.0	      7.13
451.0	      7.12
452.0	      7.11
453.0	      7.11
454.0	      7.1
455.0	      7.09
456.0	      7.08
457.0	      7.07
458.0	      7.06
459.0	      7.05
460.0	      7.04
461.0	      7.03
462.0	      7.02
463.0	      7.02
464.0	      7.01
465.0	      7.0
466.0	      6.99
467.0	      6.98
468.0	      6.97
469.0	      6.96
470.0	      6.95
471.0	      6.94
472.0	      6.94
473.0	      6.93
474.0	      6.92
475.0	      6.91
476.0	      6.9
477.0	      6.89
478.0	      6.88
479.0	      6.87
480.0	      6.87
481.0	      6.86
482.0	      6.85
483.0	      6.84
484.0	      6.83
485.0	      6.82
486.0	      6.81
487.0	      6.81
488.0	      6.8
489.0	      6.79
490.0	      6.78
491.0	      6.77
492.0	      6.76
493.0	      6.76
494.0	      6.75
495.0	      6.74
496.0	      6.73
497.0	      6.72
498.0	      6.71
499.0	      6.71
500.0	      6.7
501.0	      6.69
502.0	      6.68
503.0	      6.67
504.0	      6.66
505.0	      6.66
506.0	      6.65
507.0	      6.64
508.0	      6.63
509.0	      6.62
510.0	      6.62
511.0	      6.61
512.0	      6.6
513.0	      6.59
514.0	      6.58
515.0	      6.58
516.0	      6.57
517.0	      6.56
518.0	      6.55
519.0	      6.54
520.0	      6.54
521.0	      6.53
522.0	      6.52
523.0	      6.51
524.0	      6.5
525.0	      6.5
526.0	      6.49
527.0	      6.48
528.0	      6.47
529.0	      6.47
530.0	      6.46
531.0	      6.45
532.0	      6.44
533.0	      6.43
534.0	      6.43
535.0	      6.42
536.0	      6.41
537.0	      6.4
538.0	      6.4
539.0	      6.39
540.0	      6.38
541.0	      6.37
542.0	      6.37
543.0	      6.36
544.0	      6.35
545.0	      6.34
546.0	      6.34
547.0	      6.33
548.0	      6.32
549.0	      6.31
550.0	      6.31
551.0	      6.3
552.0	      6.29
553.0	      6.28
554.0	      6.28
555.0	      6.27
556.0	      6.26
557.0	      6.25
558.0	      6.25
559.0	      6.24
560.0	      6.23
561.0	      6.22
562.0	      6.22
563.0	      6.21
564.0	      6.2
565.0	      6.2
566.0	      6.19
567.0	      6.18
568.0	      6.17
569.0	      6.17
570.0	      6.16
571.0	      6.15
572.0	      6.15
573.0	      6.14
574.0	      6.13
575.0	      6.12
576.0	      6.12
577.0	      6.11
578.0	      6.1
579.0	      6.1
580.0	      6.09
581.0	      6.08
582.0	      6.07
583.0	      6.07
584.0	      6.06
585.0	      6.05
586.0	      6.05
587.0	      6.04
588.0	      6.03
589.0	      6.03
590.0	      6.02
591.0	      6.01
592.0	      6.01
593.0	      6.0
594.0	      5.99
595.0	      5.99
596.0	      5.98
597.0	      5.97
598.0	      5.97
599.0	      5.96
600.0	      5.95
601.0	      5.94
602.0	      5.94
603.0	      5.93
604.0	      5.92
605.0	      5.92
606.0	      5.91
607.0	      5.9
608.0	      5.9
609.0	      5.89
610.0	      5.88
611.0	      5.88
612.0	      5.87
613.0	      5.87
614.0	      5.86
615.0	      5.85
616.0	      5.85
617.0	      5.84
618.0	      5.83
619.0	      5.83
620.0	      5.82
621.0	      5.81
622.0	      5.81
623.0	      5.8
624.0	      5.79
625.0	      5.79
626.0	      5.78
627.0	      5.77
628.0	      5.77
629.0	      5.76
630.0	      5.76
631.0	      5.75
632.0	      5.74
633.0	      5.74
634.0	      5.73
635.0	      5.72
636.0	      5.72
637.0	      5.71
638.0	      5.7
639.0	      5.7
640.0	      5.69
641.0	      5.69
642.0	      5.68
643.0	      5.67
644.0	      5.67
645.0	      5.66
646.0	      5.65
647.0	      5.65
648.0	      5.64
649.0	      5.64
650.0	      5.63
651.0	      5.62
652.0	      5.62
653.0	      5.61
654.0	      5.61
655.0	      5.6
656.0	      5.59
657.0	      5.59
658.0	      5.58
659.0	      5.58
660.0	      5.57
661.0	      5.56
662.0	      5.56
663.0	      5.55
664.0	      5.55
665.0	      5.54
666.0	      5.53
667.0	      5.53
668.0	      5.52
669.0	      5.52
670.0	      5.51
671.0	      5.5
672.0	      5.5
673.0	      5.49
674.0	      5.49
675.0	      5.48
676.0	      5.47
677.0	      5.47
678.0	      5.46
679.0	      5.46
680.0	      5.45
681.0	      5.45
682.0	      5.44
683.0	      5.43
684.0	      5.43
685.0	      5.42
686.0	      5.42
687.0	      5.41
688.0	      5.41
689.0	      5.4
690.0	      5.39
691.0	      5.39
692.0	      5.38
693.0	      5.38
694.0	      5.37
695.0	      5.37
696.0	      5.36
697.0	      5.35
698.0	      5.35
699.0	      5.34
700.0	      5.34
701.0	      5.33
702.0	      5.33
703.0	      5.32
704.0	      5.32
705.0	      5.31
706.0	      5.3
707.0	      5.3
708.0	      5.29
709.0	      5.29
710.0	      5.28
711.0	      5.28
712.0	      5.27
713.0	      5.27
714.0	      5.26
715.0	      5.25
716.0	      5.25
717.0	      5.24
718.0	      5.24
719.0	      5.23
720.0	      5.23
721.0	      5.22
722.0	      5.22
723.0	      5.21
724.0	      5.21
725.0	      5.2
726.0	      5.2
727.0	      5.19
728.0	      5.18
729.0	      5.18
730.0	      5.17
731.0	      5.17
732.0	      5.16
733.0	      5.16
734.0	      5.15
735.0	      5.15
736.0	      5.14
737.0	      5.14
738.0	      5.13
739.0	      5.13
740.0	      5.12
741.0	      5.12
742.0	      5.11
743.0	      5.11
744.0	      5.1
745.0	      5.1
746.0	      5.09
747.0	      5.08
748.0	      5.08
749.0	      5.07
750.0	      5.07
751.0	      5.06
752.0	      5.06
753.0	      5.05
754.0	      5.05
755.0	      5.04
756.0	      5.04
757.0	      5.03
758.0	      5.03
759.0	      5.02
760.0	      5.02
761.0	      5.01
762.0	      5.01
763.0	      5.0
764.0	      5.0
765.0	      4.99
766.0	      4.99
767.0	      4.98
768.0	      4.98
769.0	      4.97
770.0	      4.97
771.0	      4.96
772.0	      4.96
773.0	      4.95
774.0	      4.95
775.0	      4.94
776.0	      4.94
777.0	      4.93
778.0	      4.93
779.0	      4.92
780.0	      4.92
781.0	      4.91
782.0	      4.91
783.0	      4.9
784.0	      4.9
785.0	      4.9
786.0	      4.89
787.0	      4.89
788.0	      4.88
789.0	      4.88
790.0	      4.87
791.0	      4.87
792.0	      4.86
793.0	      4.86
794.0	      4.85
795.0	      4.85
796.0	      4.84
797.0	      4.84
798.0	      4.83
799.0	      4.83
800.0	      4.82
801.0	      4.82
802.0	      4.81
803.0	      4.81
804.0	      4.8
805.0	      4.8
806.0	      4.8
807.0	      4.79
808.0	      4.79
809.0	      4.78
810.0	      4.78
811.0	      4.77
812.0	      4.77
813.0	      4.76
814.0	      4.76
815.0	      4.75
816.0	      4.75
817.0	      4.74
818.0	      4.74
819.0	      4.74
820.0	      4.73
821.0	      4.73
822.0	      4.72
823.0	      4.72
824.0	      4.71
825.0	      4.71
826.0	      4.7
827.0	      4.7
828.0	      4.69
829.0	      4.69
830.0	      4.69
831.0	      4.68
832.0	      4.68
833.0	      4.67
834.0	      4.67
835.0	      4.66
836.0	      4.66
837.0	      4.65
838.0	      4.65
839.0	      4.65
840.0	      4.64
841.0	      4.64
842.0	      4.63
843.0	      4.63
844.0	      4.62
845.0	      4.62
846.0	      4.61
847.0	      4.61
848.0	      4.61
849.0	      4.6
850.0	      4.6
851.0	      4.59
852.0	      4.59
853.0	      4.58
854.0	      4.58
855.0	      4.58
856.0	      4.57
857.0	      4.57
858.0	      4.56
859.0	      4.56
860.0	      4.55
861.0	      4.55
862.0	      4.55
863.0	      4.54
864.0	      4.54
865.0	      4.53
866.0	      4.53
867.0	      4.52
868.0	      4.52
869.0	      4.52
870.0	      4.51
871.0	      4.51
872.0	      4.5
873.0	      4.5
874.0	      4.49
875.0	      4.49
876.0	      4.49
877.0	      4.48
878.0	      4.48
879.0	      4.47
880.0	      4.47
881.0	      4.47
882.0	      4.46
883.0	      4.46
884.0	      4.45
885.0	      4.45
886.0	      4.44
887.0	      4.44
888.0	      4.44
889.0	      4.43
890.0	      4.43
891.0	      4.42
892.0	      4.42
893.0	      4.42
894.0	      4.41
895.0	      4.41
896.0	      4.4
897.0	      4.4
898.0	      4.4
899.0	      4.39
900.0	      4.39
901.0	      4.38
902.0	      4.38
903.0	      4.38
904.0	      4.37
905.0	      4.37
906.0	      4.36
907.0	      4.36
908.0	      4.36
909.0	      4.35
910.0	      4.35
911.0	      4.34
912.0	      4.34
913.0	      4.34
914.0	      4.33
915.0	      4.33
916.0	      4.32
917.0	      4.32
918.0	      4.32
919.0	      4.31
920.0	      4.31
921.0	      4.3
922.0	      4.3
923.0	      4.3
924.0	      4.29
925.0	      4.29
926.0	      4.29
927.0	      4.28
928.0	      4.28
929.0	      4.27
930.0	      4.27
931.0	      4.27
932.0	      4.26
933.0	      4.26
934.0	      4.25
935.0	      4.25
936.0	      4.25
937.0	      4.24
938.0	      4.24
939.0	      4.24
940.0	      4.23
941.0	      4.23
942.0	      4.22
943.0	      4.22
944.0	      4.22
945.0	      4.21
946.0	      4.21
947.0	      4.21
948.0	      4.2
949.0	      4.2
950.0	      4.19
951.0	      4.19
952.0	      4.19
953.0	      4.18
954.0	      4.18
955.0	      4.18
956.0	      4.17
957.0	      4.17
958.0	      4.16
959.0	      4.16
960.0	      4.16
961.0	      4.15
962.0	      4.15
963.0	      4.15
964.0	      4.14
965.0	      4.14
966.0	      4.14
967.0	      4.13
968.0	      4.13
969.0	      4.12
970.0	      4.12
971.0	      4.12
972.0	      4.11
973.0	      4.11
974.0	      4.11
975.0	      4.1
976.0	      4.1
977.0	      4.1
978.0	      4.09
979.0	      4.09
980.0	      4.09
981.0	      4.08
982.0	      4.08
983.0	      4.07
984.0	      4.07
985.0	      4.07
986.0	      4.06
987.0	      4.06
988.0	      4.06
989.0	      4.05
990.0	      4.05
991.0	      4.05
992.0	      4.04
993.0	      4.04
994.0	      4.04
995.0	      4.03
996.0	      4.03
997.0	      4.03
998.0	      4.02
999.0	      4.02
1000.0	     4.01
1001.0	     4.01
1002.0	     4.01
1003.0	     4.0
1004.0	     4.0
1005.0	     4.0
1006.0	     3.99
1007.0	     3.99
1008.0	     3.99
1009.0	     3.98
1010.0	     3.98
1011.0	     3.98
1012.0	     3.97
1013.0	     3.97
1014.0	     3.97
1015.0	     3.96
1016.0	     3.96
1017.0	     3.96
1018.0	     3.95
1019.0	     3.95
1020.0	     3.95
1021.0	     3.94
1022.0	     3.94
1023.0	     3.94
1024.0	     3.93
1025.0	     3.93
1026.0	     3.93
1027.0	     3.92
1028.0	     3.92
1029.0	     3.92
1030.0	     3.91
1031.0	     3.91
1032.0	     3.91
1033.0	     3.9
1034.0	     3.9
1035.0	     3.9
1036.0	     3.89
1037.0	     3.89
1038.0	     3.89
1039.0	     3.88
1040.0	     3.88
1041.0	     3.88
1042.0	     3.87
1043.0	     3.87
1044.0	     3.87
1045.0	     3.86
1046.0	     3.86
1047.0	     3.86
1048.0	     3.85
1049.0	     3.85
1050.0	     3.85
1051.0	     3.84
1052.0	     3.84
1053.0	     3.84
1054.0	     3.84
1055.0	     3.83
1056.0	     3.83
1057.0	     3.83
1058.0	     3.82
1059.0	     3.82
1060.0	     3.82
1061.0	     3.81
1062.0	     3.81
1063.0	     3.81
1064.0	     3.8
1065.0	     3.8
1066.0	     3.8
1067.0	     3.79
1068.0	     3.79
1069.0	     3.79
1070.0	     3.78
1071.0	     3.78
1072.0	     3.78
1073.0	     3.78
1074.0	     3.77
1075.0	     3.77
1076.0	     3.77
1077.0	     3.76
1078.0	     3.76
1079.0	     3.76
1080.0	     3.75
1081.0	     3.75
1082.0	     3.75
1083.0	     3.74
1084.0	     3.74
1085.0	     3.74
1086.0	     3.74
1087.0	     3.73
1088.0	     3.73
1089.0	     3.73
1090.0	     3.72
1091.0	     3.72
1092.0	     3.72
1093.0	     3.71
1094.0	     3.71
1095.0	     3.71
1096.0	     3.7
1097.0	     3.7
1098.0	     3.7
1099.0	     3.7
1100.0	     3.69
1101.0	     3.69
1102.0	     3.69
1103.0	     3.68
1104.0	     3.68
1105.0	     3.68
1106.0	     3.68
1107.0	     3.67
1108.0	     3.67
1109.0	     3.67
1110.0	     3.66
1111.0	     3.66
1112.0	     3.66
1113.0	     3.65
1114.0	     3.65
1115.0	     3.65
1116.0	     3.65
1117.0	     3.64
1118.0	     3.64
1119.0	     3.64
1120.0	     3.63
1121.0	     3.63
1122.0	     3.63
1123.0	     3.63
1124.0	     3.62
1125.0	     3.62
1126.0	     3.62
1127.0	     3.61
1128.0	     3.61
1129.0	     3.61
1130.0	     3.61
1131.0	     3.6
1132.0	     3.6
1133.0	     3.6
1134.0	     3.59
1135.0	     3.59
1136.0	     3.59
1137.0	     3.59
1138.0	     3.58
1139.0	     3.58
1140.0	     3.58
1141.0	     3.57
1142.0	     3.57
1143.0	     3.57
1144.0	     3.57
1145.0	     3.56
1146.0	     3.56
1147.0	     3.56
1148.0	     3.55
1149.0	     3.55
1150.0	     3.55
1151.0	     3.55
1152.0	     3.54
1153.0	     3.54
1154.0	     3.54
1155.0	     3.53
1156.0	     3.53
1157.0	     3.53
1158.0	     3.53
1159.0	     3.52
1160.0	     3.52
1161.0	     3.52
1162.0	     3.52
1163.0	     3.51
1164.0	     3.51
1165.0	     3.51
1166.0	     3.5
1167.0	     3.5
1168.0	     3.5
1169.0	     3.5
1170.0	     3.49
1171.0	     3.49
1172.0	     3.49
1173.0	     3.49
1174.0	     3.48
1175.0	     3.48
1176.0	     3.48
1177.0	     3.48
1178.0	     3.47
1179.0	     3.47
1180.0	     3.47
1181.0	     3.46
1182.0	     3.46
1183.0	     3.46
1184.0	     3.46
1185.0	     3.45
1186.0	     3.45
1187.0	     3.45
1188.0	     3.45
1189.0	     3.44
1190.0	     3.44
1191.0	     3.44
1192.0	     3.44
1193.0	     3.43
1194.0	     3.43
1195.0	     3.43
1196.0	     3.42
1197.0	     3.42
1198.0	     3.42
1199.0	     3.42
1200.0	     3.41
1201.0	     3.41
1202.0	     3.41
1203.0	     3.41
1204.0	     3.4
1205.0	     3.4
1206.0	     3.4
1207.0	     3.4
1208.0	     3.39
1209.0	     3.39
1210.0	     3.39
1211.0	     3.39
1212.0	     3.38
1213.0	     3.38
1214.0	     3.38
1215.0	     3.38
1216.0	     3.37
1217.0	     3.37
1218.0	     3.37
1219.0	     3.37
1220.0	     3.36
1221.0	     3.36
1222.0	     3.36
1223.0	     3.36
1224.0	     3.35
1225.0	     3.35
1226.0	     3.35
1227.0	     3.35
1228.0	     3.34
1229.0	     3.34
1230.0	     3.34
1231.0	     3.34
1232.0	     3.33
1233.0	     3.33
1234.0	     3.33
1235.0	     3.33
1236.0	     3.32
1237.0	     3.32
1238.0	     3.32
1239.0	     3.32
1240.0	     3.31
1241.0	     3.31
1242.0	     3.31
1243.0	     3.31
1244.0	     3.3
1245.0	     3.3
1246.0	     3.3
1247.0	     3.3
1248.0	     3.29
1249.0	     3.29
1250.0	     3.29
1251.0	     3.29
1252.0	     3.29
1253.0	     3.28
1254.0	     3.28
1255.0	     3.28
1256.0	     3.28
1257.0	     3.27
1258.0	     3.27
1259.0	     3.27
1260.0	     3.27
1261.0	     3.26
1262.0	     3.26
1263.0	     3.26
1264.0	     3.26
1265.0	     3.25
1266.0	     3.25
1267.0	     3.25
1268.0	     3.25
1269.0	     3.25
1270.0	     3.24
1271.0	     3.24
1272.0	     3.24
1273.0	     3.24
1274.0	     3.23
1275.0	     3.23
1276.0	     3.23
1277.0	     3.23
1278.0	     3.22
1279.0	     3.22
1280.0	     3.22
1281.0	     3.22
1282.0	     3.22
1283.0	     3.21
1284.0	     3.21
1285.0	     3.21
1286.0	     3.21
1287.0	     3.2
1288.0	     3.2
1289.0	     3.2
1290.0	     3.2
1291.0	     3.19
1292.0	     3.19
1293.0	     3.19
1294.0	     3.19
1295.0	     3.19
1296.0	     3.18
1297.0	     3.18
1298.0	     3.18
1299.0	     3.18
1300.0	     3.17
1301.0	     3.17
1302.0	     3.17
1303.0	     3.17
1304.0	     3.17
1305.0	     3.16
1306.0	     3.16
1307.0	     3.16
1308.0	     3.16
1309.0	     3.16
1310.0	     3.15
1311.0	     3.15
1312.0	     3.15
1313.0	     3.15
1314.0	     3.14
1315.0	     3.14
1316.0	     3.14
1317.0	     3.14
1318.0	     3.14
1319.0	     3.13
1320.0	     3.13
1321.0	     3.13
1322.0	     3.13
1323.0	     3.12
1324.0	     3.12
1325.0	     3.12
1326.0	     3.12
1327.0	     3.12
1328.0	     3.11
1329.0	     3.11
1330.0	     3.11
1331.0	     3.11
1332.0	     3.11
1333.0	     3.1
1334.0	     3.1
1335.0	     3.1
1336.0	     3.1
1337.0	     3.1
1338.0	     3.09
1339.0	     3.09
1340.0	     3.09
1341.0	     3.09
1342.0	     3.09
1343.0	     3.08
1344.0	     3.08
1345.0	     3.08
1346.0	     3.08
1347.0	     3.07
1348.0	     3.07
1349.0	     3.07
1350.0	     3.07
1351.0	     3.07
1352.0	     3.06
1353.0	     3.06
1354.0	     3.06
1355.0	     3.06
1356.0	     3.06
1357.0	     3.05
1358.0	     3.05
1359.0	     3.05
1360.0	     3.05
1361.0	     3.05
1362.0	     3.04
1363.0	     3.04
1364.0	     3.04
1365.0	     3.04
1366.0	     3.04
1367.0	     3.03
1368.0	     3.03
1369.0	     3.03
1370.0	     3.03
1371.0	     3.03
1372.0	     3.02
1373.0	     3.02
1374.0	     3.02
1375.0	     3.02
1376.0	     3.02
1377.0	     3.02
1378.0	     3.01
1379.0	     3.01
1380.0	     3.01
1381.0	     3.01
1382.0	     3.01
1383.0	     3.0
1384.0	     3.0
1385.0	     3.0
1386.0	     3.0
1387.0	     3.0
1388.0	     2.99
1389.0	     2.99
1390.0	     2.99
1391.0	     2.99
1392.0	     2.99
1393.0	     2.98
1394.0	     2.98
1395.0	     2.98
1396.0	     2.98
1397.0	     2.98
1398.0	     2.98
1399.0	     2.97
1400.0	     2.97
1401.0	     2.97
1402.0	     2.97
1403.0	     2.97
1404.0	     2.96
1405.0	     2.96
1406.0	     2.96
1407.0	     2.96
1408.0	     2.96
1409.0	     2.96
1410.0	     2.95
1411.0	     2.95
1412.0	     2.95
1413.0	     2.95
1414.0	     2.95
1415.0	     2.94
1416.0	     2.94
1417.0	     2.94
1418.0	     2.94
1419.0	     2.94
1420.0	     2.94
1421.0	     2.93
1422.0	     2.93
1423.0	     2.93
1424.0	     2.93
1425.0	     2.93
1426.0	     2.92
1427.0	     2.92
1428.0	     2.92
1429.0	     2.92
1430.0	     2.92
1431.0	     2.92
1432.0	     2.91
1433.0	     2.91
1434.0	     2.91
1435.0	     2.91
1436.0	     2.91
1437.0	     2.91
1438.0	     2.9
1439.0	     2.9
1440.0	     2.9
1441.0	     2.9
1442.0	     2.9
1443.0	     2.9
1444.0	     2.89
1445.0	     2.89
1446.0	     2.89
1447.0	     2.89
1448.0	     2.89
1449.0	     2.89
1450.0	     2.88
1451.0	     2.88
1452.0	     2.88
1453.0	     2.88
1454.0	     2.88
1455.0	     2.88
1456.0	     2.87
1457.0	     2.87
1458.0	     2.87
1459.0	     2.87
1460.0	     2.87
1461.0	     2.87
1462.0	     2.86
1463.0	     2.86
1464.0	     2.86
1465.0	     2.86
1466.0	     2.86
1467.0	     2.86
1468.0	     2.85
1469.0	     2.85
1470.0	     2.85
1471.0	     2.85
1472.0	     2.85
1473.0	     2.85
1474.0	     2.84
1475.0	     2.84
1476.0	     2.84
1477.0	     2.84
1478.0	     2.84
1479.0	     2.84
1480.0	     2.83
1481.0	     2.83
1482.0	     2.83
1483.0	     2.83
1484.0	     2.83
1485.0	     2.83
1486.0	     2.83
1487.0	     2.82
1488.0	     2.82
1489.0	     2.82
1490.0	     2.82
1491.0	     2.82
1492.0	     2.82
1493.0	     2.81
1494.0	     2.81
1495.0	     2.81
1496.0	     2.81
1497.0	     2.81
1498.0	     2.81
1499.0	     2.81
1500.0	     2.8
1501.0	     2.8
1502.0	     2.8
1503.0	     2.8
1504.0	     2.8
1505.0	     2.8
1506.0	     2.8
1507.0	     2.79
1508.0	     2.79
1509.0	     2.79
1510.0	     2.79
1511.0	     2.79
1512.0	     2.79
1513.0	     2.79
1514.0	     2.78
1515.0	     2.78
1516.0	     2.78
1517.0	     2.78
1518.0	     2.78
1519.0	     2.78
1520.0	     2.78
1521.0	     2.77
1522.0	     2.77
1523.0	     2.77
1524.0	     2.77
1525.0	     2.77
1526.0	     2.77
1527.0	     2.77
1528.0	     2.76
1529.0	     2.76
1530.0	     2.76
1531.0	     2.76
1532.0	     2.76
1533.0	     2.76
1534.0	     2.76
1535.0	     2.75
1536.0	     2.75
1537.0	     2.75
1538.0	     2.75
1539.0	     2.75
1540.0	     2.75
1541.0	     2.75
1542.0	     2.74
1543.0	     2.74
1544.0	     2.74
1545.0	     2.74
1546.0	     2.74
1547.0	     2.74
1548.0	     2.74
1549.0	     2.74
1550.0	     2.73
1551.0	     2.73
1552.0	     2.73
1553.0	     2.73
1554.0	     2.73
1555.0	     2.73
1556.0	     2.73
1557.0	     2.72
1558.0	     2.72
1559.0	     2.72
1560.0	     2.72
1561.0	     2.72
1562.0	     2.72
1563.0	     2.72
1564.0	     2.72
1565.0	     2.71
1566.0	     2.71
1567.0	     2.71
1568.0	     2.71
1569.0	     2.71
1570.0	     2.71
1571.0	     2.71
1572.0	     2.71
1573.0	     2.7
1574.0	     2.7
1575.0	     2.7
1576.0	     2.7
1577.0	     2.7
1578.0	     2.7
1579.0	     2.7
1580.0	     2.7
1581.0	     2.7
1582.0	     2.69
1583.0	     2.69
1584.0	     2.69
1585.0	     2.69
1586.0	     2.69
1587.0	     2.69
1588.0	     2.69
1589.0	     2.69
1590.0	     2.68
1591.0	     2.68
1592.0	     2.68
1593.0	     2.68
1594.0	     2.68
1595.0	     2.68
1596.0	     2.68
1597.0	     2.68
1598.0	     2.68
1599.0	     2.67
1600.0	     2.67
1601.0	     2.67
1602.0	     2.67
1603.0	     2.67
1604.0	     2.67
1605.0	     2.67
1606.0	     2.67
1607.0	     2.67
1608.0	     2.66
1609.0	     2.66
1610.0	     2.66
1611.0	     2.66
1612.0	     2.66
1613.0	     2.66
1614.0	     2.66
1615.0	     2.66
1616.0	     2.66
1617.0	     2.65
1618.0	     2.65
1619.0	     2.65
1620.0	     2.65
1621.0	     2.65
1622.0	     2.65
1623.0	     2.65
1624.0	     2.65
1625.0	     2.65
1626.0	     2.65
1627.0	     2.64
1628.0	     2.64
1629.0	     2.64
1630.0	     2.64
1631.0	     2.64
1632.0	     2.64
1633.0	     2.64
1634.0	     2.64
1635.0	     2.64
1636.0	     2.64
1637.0	     2.63
1638.0	     2.63
1639.0	     2.63
1640.0	     2.63
1641.0	     2.63
1642.0	     2.63
1643.0	     2.63
1644.0	     2.63
1645.0	     2.63
1646.0	     2.63
1647.0	     2.62
1648.0	     2.62
1649.0	     2.62
1650.0	     2.62
1651.0	     2.62
1652.0	     2.62
1653.0	     2.62
1654.0	     2.62
1655.0	     2.62
1656.0	     2.62
1657.0	     2.62
1658.0	     2.61
1659.0	     2.61
1660.0	     2.61
1661.0	     2.61
1662.0	     2.61
1663.0	     2.61
1664.0	     2.61
1665.0	     2.61
1666.0	     2.61
1667.0	     2.61
1668.0	     2.61
1669.0	     2.6
1670.0	     2.6
1671.0	     2.6
1672.0	     2.6
1673.0	     2.6
1674.0	     2.6
1675.0	     2.6
1676.0	     2.6
1677.0	     2.6
1678.0	     2.6
1679.0	     2.6
1680.0	     2.6
1681.0	     2.59
1682.0	     2.59
1683.0	     2.59
1684.0	     2.59
1685.0	     2.59
1686.0	     2.59
1687.0	     2.59
1688.0	     2.59
1689.0	     2.59
1690.0	     2.59
1691.0	     2.59
1692.0	     2.59
1693.0	     2.59
1694.0	     2.58
1695.0	     2.58
1696.0	     2.58
1697.0	     2.58
1698.0	     2.58
1699.0	     2.58
1700.0	     2.58
1701.0	     2.58
1702.0	     2.58
1703.0	     2.58
1704.0	     2.58
1705.0	     2.58
1706.0	     2.58
1707.0	     2.57
1708.0	     2.57
1709.0	     2.57
1710.0	     2.57
1711.0	     2.57
1712.0	     2.57
1713.0	     2.57
1714.0	     2.57
1715.0	     2.57
1716.0	     2.57
1717.0	     2.57
1718.0	     2.57
1719.0	     2.57
1720.0	     2.57
1721.0	     2.57
1722.0	     2.56
1723.0	     2.56
1724.0	     2.56
1725.0	     2.56
1726.0	     2.56
1727.0	     2.56
1728.0	     2.56
1729.0	     2.56
1730.0	     2.56
1731.0	     2.56
1732.0	     2.56
1733.0	     2.56
1734.0	     2.56
1735.0	     2.56
1736.0	     2.56
1737.0	     2.56
1738.0	     2.55
1739.0	     2.55
1740.0	     2.55
1741.0	     2.55
1742.0	     2.55
1743.0	     2.55
1744.0	     2.55
1745.0	     2.55
1746.0	     2.55
1747.0	     2.55
1748.0	     2.55
1749.0	     2.55
1750.0	     2.55
1751.0	     2.55
1752.0	     2.55
1753.0	     2.55
1754.0	     2.55
1755.0	     2.55
1756.0	     2.54
1757.0	     2.54
1758.0	     2.54
1759.0	     2.54
1760.0	     2.54
1761.0	     2.54
1762.0	     2.54
1763.0	     2.54
1764.0	     2.54
1765.0	     2.54
1766.0	     2.54
1767.0	     2.54
1768.0	     2.54
1769.0	     2.54
1770.0	     2.54
1771.0	     2.54
1772.0	     2.54
1773.0	     2.54
1774.0	     2.54
1775.0	     2.54
1776.0	     2.54
1777.0	     2.53
1778.0	     2.53
1779.0	     2.53
1780.0	     2.53
1781.0	     2.53
1782.0	     2.53
1783.0	     2.53
1784.0	     2.53
1785.0	     2.53
1786.0	     2.53
1787.0	     2.53
1788.0	     2.53
1789.0	     2.53
1790.0	     2.53
1791.0	     2.53
1792.0	     2.53
1793.0	     2.53
1794.0	     2.53
1795.0	     2.53
1796.0	     2.53
1797.0	     2.53
1798.0	     2.53
1799.0	     2.53
1800.0	     2.53
1801.0	     2.53
1802.0	     2.53
1803.0	     2.53
1804.0	     2.52
1805.0	     2.52
1806.0	     2.52
1807.0	     2.52
1808.0	     2.52
1809.0	     2.52
1810.0	     2.52
1811.0	     2.52
1812.0	     2.52
1813.0	     2.52
1814.0	     2.52
1815.0	     2.52
1816.0	     2.52
1817.0	     2.52
1818.0	     2.52
1819.0	     2.52
1820.0	     2.52
1821.0	     2.52
1822.0	     2.52
1823.0	     2.52
1824.0	     2.52
1825.0	     2.52
1826.0	     2.52
1827.0	     2.52
1828.0	     2.52
1829.0	     2.52
1830.0	     2.52
1831.0	     2.52
1832.0	     2.52
1833.0	     2.52
1834.0	     2.52
1835.0	     2.52
1836.0	     2.52
1837.0	     2.52
1838.0	     2.52
1839.0	     2.52
1840.0	     2.52
1841.0	     2.52
1842.0	     2.52
1843.0	     2.52
1844.0	     2.51
1845.0	     2.51
1846.0	     2.51
1847.0	     2.51
1848.0	     2.51
1849.0	     2.51
1850.0	     2.51
1851.0	     2.51
1852.0	     2.51
1853.0	     2.51
1854.0	     2.51
1855.0	     2.51
1856.0	     2.51
1857.0	     2.51
1858.0	     2.51
1859.0	     2.51
1860.0	     2.51
1861.0	     2.51
1862.0	     2.51
1863.0	     2.51
1864.0	     2.51
1865.0	     2.51
1866.0	     2.51
1867.0	     2.51
1868.0	     2.51
1869.0	     2.51
1870.0	     2.51
1871.0	     2.51
1872.0	     2.51
1873.0	     2.51
1874.0	     2.51
1875.0	     2.51
1876.0	     2.51
1877.0	     2.51
1878.0	     2.51
1879.0	     2.51
1880.0	     2.51
1881.0	     2.51
1882.0	     2.51
1883.0	     2.51
1884.0	     2.51
1885.0	     2.51
1886.0	     2.51
1887.0	     2.51
1888.0	     2.51
1889.0	     2.51
1890.0	     2.51
1891.0	     2.51
1892.0	     2.51
1893.0	     2.51
1894.0	     2.51
1895.0	     2.51
1896.0	     2.51
1897.0	     2.51
1898.0	     2.51
1899.0	     2.51
1900.0	     2.51
1901.0	     2.51
1902.0	     2.51
1903.0	     2.51
1904.0	     2.51
1905.0	     2.51
1906.0	     2.51
1907.0	     2.51
1908.0	     2.51
1909.0	     2.51
1910.0	     2.51
1911.0	     2.51
1912.0	     2.51
1913.0	     2.51
1914.0	     2.51
1915.0	     2.51
1916.0	     2.51
1917.0	     2.51
1918.0	     2.51
1919.0	     2.51
1920.0	     2.51
1921.0	     2.51
1922.0	     2.51
1923.0	     2.52
1924.0	     2.52
1925.0	     2.52
1926.0	     2.52
1927.0	     2.52
1928.0	     2.52
1929.0	     2.52
1930.0	     2.52
1931.0	     2.52
1932.0	     2.52
1933.0	     2.52
1934.0	     2.52
1935.0	     2.52
1936.0	     2.52
1937.0	     2.52
1938.0	     2.52
1939.0	     2.52
1940.0	     2.52
1941.0	     2.52
1942.0	     2.52
1943.0	     2.52
1944.0	     2.52
1945.0	     2.52
1946.0	     2.52
1947.0	     2.52
1948.0	     2.52
1949.0	     2.52
1950.0	     2.52
1951.0	     2.52
1952.0	     2.52
1953.0	     2.52
1954.0	     2.52
1955.0	     2.52
1956.0	     2.52
1957.0	     2.52
1958.0	     2.52
1959.0	     2.52
1960.0	     2.52
1961.0	     2.52
1962.0	     2.52
1963.0	     2.52
1964.0	     2.53
1965.0	     2.53
1966.0	     2.53
1967.0	     2.53
1968.0	     2.53
1969.0	     2.53
1970.0	     2.53
1971.0	     2.53
1972.0	     2.53
1973.0	     2.53
1974.0	     2.53
1975.0	     2.53
1976.0	     2.53
1977.0	     2.53
1978.0	     2.53
1979.0	     2.53
1980.0	     2.53
1981.0	     2.53
1982.0	     2.53
1983.0	     2.53
1984.0	     2.53
1985.0	     2.53
1986.0	     2.53
1987.0	     2.53
1988.0	     2.53
1989.0	     2.53
1990.0	     2.54
1991.0	     2.54
1992.0	     2.54
1993.0	     2.54
1994.0	     2.54
1995.0	     2.54
1996.0	     2.54
1997.0	     2.54
1998.0	     2.54
1999.0	     2.54
